Time [min.]:	UV [A.U.]:	Conductivity [mS/cm]:			
0.000	0.0345	1.73			
0.017	0.0339	1.71			
0.033	0.0477	1.73			
0.050	0.0531	1.71			
0.067	0.0648	1.71			
0.083	0.0300	1.71			
0.100	0.0574	1.71			
0.117	0.0442	1.71			
0.133	0.0626	1.73			
0.150	0.1722	1.71			
0.167	0.3283	1.73			
0.183	0.3989	1.73			
0.200	0.3931	1.71			
0.217	0.3909	1.71			
0.233	0.3897	1.71			
0.250	0.3840	1.73			
0.267	0.3809	1.71			
0.283	0.3807	1.73			
0.300	0.3810	1.73			
0.317	0.3784	1.71			
0.333	0.3793	1.71			
0.350	0.3794	1.73			
0.367	0.3776	1.71			
0.383	0.3753	1.71			
0.400	0.3753	1.71			
0.417	0.3740	1.73			
0.433	0.3702	1.71			
0.450	0.3672	1.71			
0.467	0.3656	1.71			
0.483	0.3649	1.73			
0.500	0.3661	1.73			
0.517	0.3673	1.71			
0.533	0.3677	1.73			
0.550	0.3668	1.71			
0.567	0.3658	1.73			
0.583	0.3654	1.71			
0.600	0.3656	1.73			
0.617	0.3658	1.71			
0.633	0.3670	1.71			
0.650	0.3679	1.71			
0.667	0.3689	1.73			
0.683	0.3703	1.71			
0.700	0.3701	1.71			
0.717	0.3684	1.71			
0.733	0.3690	1.73			
0.750	0.3726	1.73			
0.767	0.3731	1.71			
0.783	0.3722	1.71			
0.800	0.3731	1.71			
0.817	0.3743	1.71			
0.833	0.3739	1.71			
0.850	0.3739	1.71			
0.867	0.3729	1.71			
0.883	0.3715	1.71			
0.900	0.3704	1.71			
0.917	0.3705	1.73			
0.933	0.3704	1.71			
0.950	0.3698	1.71			
0.967	0.3693	1.73			
0.983	0.3696	1.71			
1.000	0.3703	1.73			
1.017	0.3702	1.71			
1.033	0.3695	1.73			
1.050	0.3687	1.71			
1.067	0.3683	1.71			
1.083	0.3682	1.73			
1.100	0.3679	1.71			
1.117	0.3673	1.71			
1.133	0.3662	1.71			
1.150	0.3648	1.71			
1.167	0.3630	1.73			
1.183	0.3611	1.70			
1.200	0.3591	1.71			
1.217	0.3573	1.73			
1.233	0.3552	1.71			
1.250	0.3529	1.73			
1.267	0.3504	1.71			
1.283	0.3478	1.71			
1.300	0.3451	1.73			
1.317	0.3424	1.73			
1.333	0.3395	1.71			
1.350	0.3367	1.73			
1.367	0.3336	1.73			
1.383	0.3302	1.71			
1.400	0.3270	1.71			
1.417	0.3239	1.71			
1.433	0.3206	1.71			
1.450	0.3171	1.71			
1.467	0.3137	1.71			
1.483	0.3101	1.70			
1.500	0.3068	1.71			
1.517	0.3030	1.73			
1.533	0.2991	1.71			
1.550	0.2950	1.73			
1.567	0.2910	1.71			
1.583	0.2868	1.71			
1.600	0.2825	1.71			
1.617	0.2783	1.73			
1.633	0.2739	1.71			
1.650	0.2694	1.71			
1.667	0.2648	1.73			
1.683	0.2601	1.73			
1.700	0.2555	1.71			
1.717	0.2511	1.73			
1.733	0.2466	1.71			
1.750	0.2420	1.71			
1.767	0.2378	1.73			
1.783	0.2333	1.73			
1.800	0.2289	1.71			
1.817	0.2244	1.71			
1.833	0.2203	1.71			
1.850	0.2164	1.73			
1.867	0.2121	1.71			
1.883	0.2078	1.73			
1.900	0.2039	1.71			
1.917	0.1998	1.71			
1.933	0.1958	1.73			
1.950	0.1920	1.71			
1.967	0.1881	1.73			
1.983	0.1840	1.71			
2.000	0.1800	1.73			
2.017	0.1761	1.71			
2.033	0.1725	1.73			
2.050	0.1691	1.71			
2.067	0.1657	1.73			
2.083	0.1619	1.71			
2.100	0.1583	1.73			
2.117	0.1551	1.71			
2.133	0.1522	1.71			
2.150	0.1492	1.73			
2.167	0.1462	1.71			
2.183	0.1431	1.73			
2.200	0.1402	1.71			
2.217	0.1371	1.71			
2.233	0.1342	1.73			
2.250	0.1312	1.73			
2.267	0.1284	1.73			
2.283	0.1254	1.73			
2.300	0.1226	1.71			
2.317	0.1199	1.73			
2.333	0.1172	1.73			
2.350	0.1147	1.71			
2.367	0.1123	1.73			
2.383	0.1099	1.71			
2.400	0.1076	1.71			
2.417	0.1055	1.73			
2.433	0.1033	1.73			
2.450	0.1010	1.73			
2.467	0.0990	1.73			
2.483	0.0970	1.73			
2.500	0.0950	1.73			
2.517	0.0931	1.71			
2.533	0.0915	1.71			
2.550	0.0898	1.71			
2.567	0.0880	1.71			
2.583	0.0861	1.73			
2.600	0.0844	1.71			
2.617	0.0828	1.71			
2.633	0.0814	1.71			
2.650	0.0798	1.71			
2.667	0.0782	1.73			
2.683	0.0767	1.71			
2.700	0.0753	1.71			
2.717	0.0738	1.71			
2.733	0.0724	1.71			
2.750	0.0712	1.71			
2.767	0.0700	1.71			
2.783	0.0687	1.73			
2.800	0.0675	1.73			
2.817	0.0664	1.73			
2.833	0.0653	1.71			
2.850	0.0641	1.73			
2.867	0.0631	1.71			
2.883	0.0621	1.71			
2.900	0.0612	1.71			
2.917	0.0602	1.71			
2.933	0.0593	1.73			
2.950	0.0585	1.71			
2.967	0.0577	1.71			
2.983	0.0569	1.73			
3.000	0.0562	1.73			
3.017	0.0555	1.71			
3.033	0.0550	1.73			
3.050	0.0546	1.73			
3.067	0.0540	1.71			
3.083	0.0535	1.71			
3.100	0.0531	1.71			
3.117	0.0528	1.71			
3.133	0.0525	1.73			
3.150	0.0525	1.71			
3.167	0.0527	1.73			
3.183	0.0530	1.71			
3.200	0.0531	1.71			
3.217	0.0534	1.73			
3.233	0.0537	1.73			
3.250	0.0541	1.71			
3.267	0.0544	1.73			
3.283	0.0549	1.73			
3.300	0.0555	1.71			
3.317	0.0562	1.71			
3.333	0.0569	1.73			
3.350	0.0577	1.71			
3.367	0.0586	1.73			
3.383	0.0595	1.71			
3.400	0.0604	1.73			
3.417	0.0614	1.71			
3.433	0.0623	1.73			
3.450	0.0632	1.73			
3.467	0.0641	1.71			
3.483	0.0651	1.73			
3.500	0.0660	1.71			
3.517	0.0670	1.73			
3.533	0.0679	1.71			
3.550	0.0689	1.73			
3.567	0.0698	1.71			
3.583	0.0706	1.71			
3.600	0.0715	1.71			
3.617	0.0724	1.71			
3.633	0.0731	1.73			
3.650	0.0738	1.71			
3.667	0.0745	1.73			
3.683	0.0752	1.71			
3.700	0.0758	1.73			
3.717	0.0762	1.73			
3.733	0.0766	1.73			
3.750	0.0769	1.73			
3.767	0.0772	1.73			
3.783	0.0773	1.71			
3.800	0.0773	1.73			
3.817	0.0773	1.71			
3.833	0.0772	1.73			
3.850	0.0770	1.73			
3.867	0.0768	1.71			
3.883	0.0765	1.71			
3.900	0.0762	1.73			
3.917	0.0762	1.71			
3.933	0.0757	1.73			
3.950	0.0751	1.71			
3.967	0.0742	1.73			
3.983	0.0735	1.73			
4.000	0.0728	1.71			
4.017	0.0722	1.71			
4.033	0.0713	1.73			
4.050	0.0704	1.71			
4.067	0.0696	1.71			
4.083	0.0689	1.71			
4.100	0.0682	1.71			
4.117	0.0674	1.73			
4.133	0.0668	1.73			
4.150	0.0663	1.71			
4.167	0.0658	1.73			
4.183	0.0654	1.73			
4.200	0.0653	1.73			
4.217	0.0652	1.71			
4.233	0.0652	1.73			
4.250	0.0655	1.73			
4.267	0.0660	1.71			
4.283	0.0666	1.73			
4.300	0.0675	1.73			
4.317	0.0686	1.73			
4.333	0.0699	1.71			
4.350	0.0716	1.73			
4.367	0.0734	1.71			
4.383	0.0753	1.71			
4.400	0.0775	1.71			
4.417	0.0801	1.71			
4.433	0.0829	1.71			
4.450	0.0857	1.71			
4.467	0.0888	1.71			
4.483	0.0923	1.71			
4.500	0.0959	1.71			
4.517	0.0997	1.71			
4.533	0.1034	1.71			
4.550	0.1074	1.71			
4.567	0.1117	1.71			
4.583	0.1164	1.71			
4.600	0.1206	1.73			
4.617	0.1250	1.73			
4.633	0.1295	1.71			
4.650	0.1341	1.73			
4.667	0.1385	1.71			
4.683	0.1428	1.73			
4.700	0.1474	1.71			
4.717	0.1519	1.73			
4.733	0.1564	1.71			
4.750	0.1606	1.73			
4.767	0.1651	1.73			
4.783	0.1693	1.71			
4.800	0.1733	1.73			
4.817	0.1771	1.71			
4.833	0.1807	1.71			
4.850	0.1843	1.71			
4.867	0.1875	1.71			
4.883	0.1907	1.71			
4.900	0.1938	1.73			
4.917	0.1969	1.71			
4.933	0.1998	1.71			
4.950	0.2024	1.71			
4.967	0.2051	1.71			
4.983	0.2079	1.71			
5.000	0.2109	1.73			
5.017	0.2138	1.71			
5.033	0.2168	1.71			
5.050	0.2201	1.71			
5.067	0.2240	1.71			
5.083	0.2285	1.71			
5.100	0.2330	1.71			
5.117	0.2370	1.71			
5.133	0.2415	1.71			
5.150	0.2465	1.71			
5.167	0.2518	1.71			
5.183	0.2569	1.71			
5.200	0.2625	1.71			
5.217	0.2678	1.73			
5.233	0.2732	1.71			
5.250	0.2785	1.71			
5.267	0.2842	1.73			
5.283	0.2900	1.71			
5.300	0.2952	1.73			
5.317	0.3008	1.73			
5.333	0.3061	1.71			
5.350	0.3118	1.73			
5.367	0.3171	1.71			
5.383	0.3221	1.71			
5.400	0.3268	1.71			
5.417	0.3313	1.73			
5.433	0.3350	1.73			
5.450	0.3380	1.71			
5.467	0.3406	1.71			
5.483	0.3430	1.71			
5.500	0.3448	1.71			
5.517	0.3461	1.71			
5.533	0.3469	1.71			
5.550	0.3476	1.73			
5.567	0.3475	1.71			
5.583	0.3463	1.73			
5.600	0.3448	1.71			
5.617	0.3430	1.71			
5.633	0.3409	1.71			
5.650	0.3379	1.73			
5.667	0.3342	1.71			
5.683	0.3302	1.71			
5.700	0.3260	1.71			
5.717	0.3214	1.71			
5.733	0.3166	1.73			
5.750	0.3118	1.71			
5.767	0.3067	1.73			
5.783	0.3013	1.71			
5.800	0.2957	1.73			
5.817	0.2900	1.71			
5.833	0.2844	1.71			
5.850	0.2786	1.69			
5.867	0.2730	1.73			
5.883	0.2674	1.71			
5.900	0.2618	1.71			
5.917	0.2564	1.71			
5.933	0.2510	1.73			
5.950	0.2458	1.71			
5.967	0.2404	1.71			
5.983	0.2353	1.71			
6.000	0.2304	1.71			
6.017	0.2255	1.71			
6.033	0.2205	1.73			
6.050	0.2156	1.71			
6.067	0.2110	1.71			
6.083	0.2064	1.71			
6.100	0.2020	1.71			
6.117	0.1974	1.73			
6.133	0.1934	1.73			
6.150	0.1897	1.73			
6.167	0.1860	1.71			
6.183	0.1822	1.71			
6.200	0.1782	1.69			
6.217	0.1746	1.71			
6.233	0.1711	1.71			
6.250	0.1680	1.71			
6.267	0.1652	1.71			
6.283	0.1629	1.71			
6.300	0.1608	1.71			
6.317	0.1586	1.71			
6.333	0.1563	1.71			
6.350	0.1537	1.71			
6.367	0.1512	1.71			
6.383	0.1489	1.71			
6.400	0.1471	1.73			
6.417	0.1453	1.71			
6.433	0.1437	1.73			
6.450	0.1414	1.71			
6.467	0.1394	1.71			
6.483	0.1380	1.69			
6.500	0.1366	1.71			
6.517	0.1349	1.73			
6.533	0.1341	1.71			
6.550	0.1337	1.73			
6.567	0.1327	1.71			
6.583	0.1315	1.71			
6.600	0.1306	1.73			
6.617	0.1298	1.71			
6.633	0.1291	1.71			
6.650	0.1287	1.71			
6.667	0.1284	1.73			
6.683	0.1281	1.71			
6.700	0.1276	1.73			
6.717	0.1270	1.71			
6.733	0.1265	1.73			
6.750	0.1261	1.71			
6.767	0.1257	1.71			
6.783	0.1252	1.71			
6.800	0.1246	1.71			
6.817	0.1240	1.71			
6.833	0.1233	1.71			
6.850	0.1224	1.71			
6.867	0.1212	1.71			
6.883	0.1202	1.71			
6.900	0.1192	1.73			
6.917	0.1183	1.71			
6.933	0.1173	1.71			
6.950	0.1163	1.73			
6.967	0.1153	1.71			
6.983	0.1143	1.73			
7.000	0.1135	1.71			
7.017	0.1125	1.71			
7.033	0.1113	1.71			
7.050	0.1104	1.73			
7.067	0.1094	1.71			
7.083	0.1084	1.73			
7.100	0.1073	1.71			
7.117	0.1062	1.71			
7.133	0.1053	1.71			
7.150	0.1044	1.73			
7.167	0.1035	1.71			
7.183	0.1024	1.73			
7.200	0.1014	1.73			
7.217	0.1004	1.71			
7.233	0.0995	1.73			
7.250	0.0986	1.71			
7.267	0.0977	1.71			
7.283	0.0969	1.71			
7.300	0.0962	1.71			
7.317	0.0954	1.71			
7.333	0.0945	1.71			
7.350	0.0938	1.69			
7.367	0.0932	1.71			
7.383	0.0927	1.71			
7.400	0.0924	1.71			
7.417	0.0922	1.73			
7.433	0.0920	1.71			
7.450	0.0916	1.73			
7.467	0.0912	1.71			
7.483	0.0909	1.71			
7.500	0.0907	1.71			
7.517	0.0906	1.73			
7.533	0.0904	1.71			
7.550	0.0902	1.71			
7.567	0.0899	1.73			
7.583	0.0896	1.71			
7.600	0.0895	1.73			
7.617	0.0895	1.71			
7.633	0.0894	1.71			
7.650	0.0892	1.71			
7.667	0.0888	1.73			
7.683	0.0884	1.71			
7.700	0.0881	1.73			
7.717	0.0877	1.71			
7.733	0.0872	1.71			
7.750	0.0867	1.73			
7.767	0.0863	1.71			
7.783	0.0858	1.73			
7.800	0.0853	1.71			
7.817	0.0847	1.71			
7.833	0.0842	1.71			
7.850	0.0837	1.71			
7.867	0.0831	1.71			
7.883	0.0824	1.71			
7.900	0.0819	1.71			
7.917	0.0814	1.71			
7.933	0.0809	1.73			
7.950	0.0802	1.71			
7.967	0.0796	1.73			
7.983	0.0791	1.73			
8.000	0.0786	1.71			
8.017	0.0781	1.73			
8.033	0.0777	1.71			
8.050	0.0771	1.71			
8.067	0.0766	1.71			
8.083	0.0761	1.73			
8.100	0.0757	1.71			
8.117	0.0753	1.71			
8.133	0.0750	1.71			
8.150	0.0745	1.71			
8.167	0.0740	1.73			
8.183	0.0735	1.71			
8.200	0.0732	1.71			
8.217	0.0729	1.71			
8.233	0.0726	1.71			
8.250	0.0723	1.71			
8.267	0.0719	1.73			
8.283	0.0714	1.71			
8.300	0.0709	1.71			
8.317	0.0705	1.71			
8.333	0.0701	1.71			
8.350	0.0697	1.73			
8.367	0.0692	1.71			
8.383	0.0686	1.73			
8.400	0.0683	1.71			
8.417	0.0680	1.73			
8.433	0.0675	1.71			
8.450	0.0669	1.70			
8.467	0.0663	1.73			
8.483	0.0658	1.71			
8.500	0.0653	1.73			
8.517	0.0648	1.71			
8.533	0.0643	1.71			
8.550	0.0638	1.71			
8.567	0.0634	1.71			
8.583	0.0629	1.73			
8.600	0.0624	1.71			
8.617	0.0619	1.73			
8.633	0.0614	1.71			
8.650	0.0609	1.71			
8.667	0.0605	1.73			
8.683	0.0601	1.71			
8.700	0.0597	1.73			
8.717	0.0592	1.71			
8.733	0.0588	1.73			
8.750	0.0584	1.71			
8.767	0.0581	1.73			
8.783	0.0576	1.71			
8.800	0.0572	1.73			
8.817	0.0568	1.73			
8.833	0.0565	1.70			
8.850	0.0560	1.71			
8.867	0.0554	1.71			
8.883	0.0550	1.71			
8.900	0.0545	1.73			
8.917	0.0540	1.71			
8.933	0.0535	1.71			
8.950	0.0530	1.71			
8.967	0.0524	1.71			
8.983	0.0520	1.71			
9.000	0.0517	1.73			
9.017	0.0514	1.71			
9.033	0.0511	1.71			
9.050	0.0507	1.73			
9.067	0.0503	1.71			
9.083	0.0499	1.71			
9.100	0.0496	1.71			
9.117	0.0491	1.71			
9.133	0.0486	1.71			
9.150	0.0482	1.73			
9.167	0.0479	1.71			
9.183	0.0475	1.73			
9.200	0.0470	1.71			
9.217	0.0467	1.71			
9.233	0.0464	1.73			
9.250	0.0460	1.71			
9.267	0.0456	1.73			
9.283	0.0453	1.71			
9.300	0.0450	1.73			
9.317	0.0447	1.71			
9.333	0.0444	1.71			
9.350	0.0441	1.71			
9.367	0.0439	1.73			
9.383	0.0436	1.73			
9.400	0.0432	1.70			
9.417	0.0428	1.71			
9.433	0.0425	1.71			
9.450	0.0422	1.71			
9.467	0.0418	1.71			
9.483	0.0414	1.71			
9.500	0.0411	1.73			
9.517	0.0407	1.71			
9.533	0.0403	1.71			
9.550	0.0399	1.71			
9.567	0.0396	1.73			
9.583	0.0392	1.71			
9.600	0.0388	1.73			
9.617	0.0385	1.71			
9.633	0.0382	1.71			
9.650	0.0379	1.71			
9.667	0.0376	1.71			
9.683	0.0373	1.71			
9.700	0.0371	1.71			
9.717	0.0369	1.73			
9.733	0.0366	1.73			
9.750	0.0362	1.71			
9.767	0.0360	1.71			
9.783	0.0358	1.71			
9.800	0.0356	1.73			
9.817	0.0355	1.71			
9.833	0.0353	1.73			
9.850	0.0351	1.71			
9.867	0.0349	1.73			
9.883	0.0347	1.73			
9.900	0.0346	1.71			
9.917	0.0345	1.73			
9.933	0.0343	1.71			
9.950	0.0340	1.71			
9.967	0.0338	1.73			
9.983	0.0337	1.71			
10.000	0.0336	1.71			
10.017	0.0335	1.71			
10.033	0.0334	1.73			
10.050	0.0334	1.71			
10.067	0.0334	1.71			
10.083	0.0333	1.71			
10.100	0.0332	1.71			
10.117	0.0331	1.71			
10.133	0.0330	1.71			
10.150	0.0328	1.71			
10.167	0.0326	1.71			
10.183	0.0324	1.71			
10.200	0.0321	1.71			
10.217	0.0320	1.73			
10.233	0.0320	1.71			
10.250	0.0319	1.73			
10.267	0.0318	1.71			
10.283	0.0317	1.71			
10.300	0.0315	1.73			
10.317	0.0316	1.71			
10.333	0.0315	1.73			
10.350	0.0313	1.71			
10.367	0.0311	1.73			
10.383	0.0311	1.73			
10.400	0.0310	1.71			
10.417	0.0310	1.71			
10.433	0.0310	1.71			
10.450	0.0311	1.73			
10.467	0.0312	1.71			
10.483	0.0313	1.71			
10.500	0.0317	1.71			
10.517	0.0321	1.73			
10.533	0.0326	1.71			
10.550	0.0332	1.73			
10.567	0.0338	1.71			
10.583	0.0345	1.71			
10.600	0.0348	1.71			
10.617	0.0348	1.71			
10.633	0.0348	1.71			
10.650	0.0350	1.71			
10.667	0.0354	1.71			
10.683	0.0359	1.71			
10.700	0.0364	1.73			
10.717	0.0366	1.73			
10.733	0.0367	1.71			
10.750	0.0367	1.71			
10.767	0.0366	1.71			
10.783	0.0369	1.71			
10.800	0.0373	1.71			
10.817	0.0376	1.71			
10.833	0.0380	1.73			
10.850	0.0385	1.71			
10.867	0.0389	1.71			
10.883	0.0391	1.71			
10.900	0.0391	1.70			
10.917	0.0389	1.73			
10.933	0.0391	1.71			
10.950	0.0393	1.73			
10.967	0.0387	1.71			
10.983	0.0378	1.73			
