Time [min.]:	UV [A.U.]:	Conductivity [mS/cm]:			
0.000	0.0215	1.71			
0.017	0.0373	1.71			
0.033	0.0363	1.73			
0.050	0.0535	1.71			
0.067	0.0517	1.71			
0.083	0.0426	1.71			
0.100	0.0215	1.71			
0.117	0.0323	1.71			
0.133	0.0386	1.71			
0.150	0.1478	1.71			
0.167	0.2389	1.71			
0.183	0.2719	1.73			
0.200	0.2622	1.71			
0.217	0.2604	1.71			
0.233	0.2583	1.71			
0.250	0.2558	1.71			
0.267	0.2559	1.71			
0.283	0.2571	1.73			
0.300	0.2549	1.71			
0.317	0.2513	1.71			
0.333	0.2498	1.71			
0.350	0.2494	1.71			
0.367	0.2483	1.71			
0.383	0.2460	1.71			
0.400	0.2440	1.71			
0.417	0.2447	1.71			
0.433	0.2454	1.71			
0.450	0.2448	1.71			
0.467	0.2439	1.71			
0.483	0.2434	1.71			
0.500	0.2434	1.71			
0.517	0.2431	1.71			
0.533	0.2429	1.71			
0.550	0.2426	1.73			
0.567	0.2421	1.71			
0.583	0.2423	1.71			
0.600	0.2427	1.71			
0.617	0.2423	1.71			
0.633	0.2414	1.71			
0.650	0.2415	1.71			
0.667	0.2415	1.71			
0.683	0.2415	1.71			
0.700	0.2419	1.71			
0.717	0.2424	1.71			
0.733	0.2425	1.71			
0.750	0.2426	1.71			
0.767	0.2431	1.71			
0.783	0.2446	1.71			
0.800	0.2453	1.71			
0.817	0.2451	1.71			
0.833	0.2454	1.71			
0.850	0.2457	1.73			
0.867	0.2458	1.69			
0.883	0.2463	1.73			
0.900	0.2465	1.71			
0.917	0.2462	1.71			
0.933	0.2461	1.71			
0.950	0.2466	1.71			
0.967	0.2471	1.71			
0.983	0.2475	1.71			
1.000	0.2480	1.69			
1.017	0.2488	1.73			
1.033	0.2488	1.71			
1.050	0.2489	1.73			
1.067	0.2494	1.71			
1.083	0.2496	1.73			
1.100	0.2493	1.71			
1.117	0.2496	1.71			
1.133	0.2502	1.71			
1.150	0.2509	1.71			
1.167	0.2510	1.71			
1.183	0.2511	1.71			
1.200	0.2518	1.71			
1.217	0.2523	1.71			
1.233	0.2525	1.71			
1.250	0.2530	1.71			
1.267	0.2538	1.73			
1.283	0.2548	1.71			
1.300	0.2560	1.73			
1.317	0.2568	1.71			
1.333	0.2565	1.73			
1.350	0.2561	1.71			
1.367	0.2565	1.69			
1.383	0.2575	1.73			
1.400	0.2581	1.71			
1.417	0.2586	1.71			
1.433	0.2587	1.73			
1.450	0.2588	1.73			
1.467	0.2590	1.71			
1.483	0.2594	1.71			
1.500	0.2601	1.71			
1.517	0.2603	1.71			
1.533	0.2604	1.73			
1.550	0.2606	1.71			
1.567	0.2606	1.71			
1.583	0.2607	1.71			
1.600	0.2610	1.71			
1.617	0.2612	1.71			
1.633	0.2614	1.71			
1.650	0.2614	1.71			
1.667	0.2612	1.73			
1.683	0.2610	1.71			
1.700	0.2610	1.71			
1.717	0.2613	1.73			
1.733	0.2619	1.71			
1.750	0.2620	1.71			
1.767	0.2619	1.71			
1.783	0.2617	1.71			
1.800	0.2616	1.71			
1.817	0.2616	1.71			
1.833	0.2618	1.73			
1.850	0.2619	1.71			
1.867	0.2619	1.73			
1.883	0.2617	1.71			
1.900	0.2614	1.73			
1.917	0.2612	1.71			
1.933	0.2610	1.71			
1.950	0.2608	1.71			
1.967	0.2608	1.71			
1.983	0.2607	1.71			
2.000	0.2607	1.71			
2.017	0.2607	1.71			
2.033	0.2607	1.71			
2.050	0.2607	1.71			
2.067	0.2606	1.73			
2.083	0.2605	1.71			
2.100	0.2605	1.71			
2.117	0.2606	1.71			
2.133	0.2606	1.71			
2.150	0.2607	1.71			
2.167	0.2607	1.71			
2.183	0.2607	1.71			
2.200	0.2607	1.73			
2.217	0.2608	1.69			
2.233	0.2608	1.73			
2.250	0.2608	1.71			
2.267	0.2608	1.73			
2.283	0.2607	1.71			
2.300	0.2607	1.73			
2.317	0.2606	1.71			
2.333	0.2605	1.71			
2.350	0.2603	1.73			
2.367	0.2600	1.71			
2.383	0.2598	1.73			
2.400	0.2595	1.71			
2.417	0.2593	1.73			
2.433	0.2591	1.71			
2.450	0.2590	1.73			
2.467	0.2588	1.73			
2.483	0.2585	1.71			
2.500	0.2585	1.71			
2.517	0.2584	1.71			
2.533	0.2583	1.71			
2.550	0.2579	1.73			
2.567	0.2578	1.70			
2.583	0.2576	1.73			
2.600	0.2574	1.71			
2.617	0.2572	1.71			
2.633	0.2571	1.71			
2.650	0.2570	1.71			
2.667	0.2568	1.73			
2.683	0.2566	1.71			
2.700	0.2564	1.71			
2.717	0.2563	1.71			
2.733	0.2561	1.73			
2.750	0.2559	1.73			
2.767	0.2557	1.71			
2.783	0.2556	1.73			
2.800	0.2554	1.71			
2.817	0.2553	1.71			
2.833	0.2551	1.73			
2.850	0.2549	1.71			
2.867	0.2548	1.73			
2.883	0.2549	1.71			
2.900	0.2548	1.71			
2.917	0.2546	1.71			
2.933	0.2543	1.71			
2.950	0.2541	1.71			
2.967	0.2539	1.71			
2.983	0.2537	1.71			
3.000	0.2535	1.71			
3.017	0.2533	1.71			
3.033	0.2532	1.71			
3.050	0.2531	1.73			
3.067	0.2530	1.71			
3.083	0.2526	1.71			
3.100	0.2525	1.73			
3.117	0.2523	1.73			
3.133	0.2520	1.73			
3.150	0.2517	1.71			
3.167	0.2516	1.73			
3.183	0.2514	1.73			
3.200	0.2512	1.71			
3.217	0.2510	1.73			
3.233	0.2508	1.71			
3.250	0.2506	1.71			
3.267	0.2504	1.73			
3.283	0.2502	1.73			
3.300	0.2500	1.71			
3.317	0.2498	1.71			
3.333	0.2496	1.71			
3.350	0.2493	1.71			
3.367	0.2492	1.71			
3.383	0.2490	1.71			
3.400	0.2487	1.71			
3.417	0.2485	1.71			
3.433	0.2483	1.73			
3.450	0.2481	1.71			
3.467	0.2479	1.71			
3.483	0.2477	1.73			
3.500	0.2475	1.71			
3.517	0.2473	1.73			
3.533	0.2471	1.71			
3.550	0.2469	1.73			
3.567	0.2467	1.71			
3.583	0.2465	1.73			
3.600	0.2462	1.73			
3.617	0.2459	1.73			
3.633	0.2456	1.73			
3.650	0.2453	1.71			
3.667	0.2451	1.73			
3.683	0.2447	1.71			
3.700	0.2444	1.73			
3.717	0.2442	1.71			
3.733	0.2439	1.71			
3.750	0.2437	1.73			
3.767	0.2434	1.71			
3.783	0.2432	1.71			
3.800	0.2430	1.73			
3.817	0.2428	1.71			
3.833	0.2426	1.71			
3.850	0.2424	1.71			
3.867	0.2423	1.73			
3.883	0.2422	1.71			
3.900	0.2421	1.71			
3.917	0.2421	1.73			
3.933	0.2421	1.73			
3.950	0.2422	1.73			
3.967	0.2423	1.71			
3.983	0.2425	1.71			
4.000	0.2428	1.71			
4.017	0.2432	1.73			
4.033	0.2436	1.71			
4.050	0.2442	1.73			
4.067	0.2448	1.70			
4.083	0.2456	1.73			
4.100	0.2465	1.71			
4.117	0.2473	1.71			
4.133	0.2481	1.71			
4.150	0.2491	1.71			
4.167	0.2499	1.73			
4.183	0.2509	1.71			
4.200	0.2519	1.73			
4.217	0.2528	1.73			
4.233	0.2537	1.71			
4.250	0.2545	1.73			
4.267	0.2553	1.71			
4.283	0.2562	1.71			
4.300	0.2569	1.73			
4.317	0.2574	1.71			
4.333	0.2578	1.73			
4.350	0.2582	1.71			
4.367	0.2585	1.73			
4.383	0.2585	1.71			
4.400	0.2584	1.71			
4.417	0.2582	1.71			
4.433	0.2579	1.71			
4.450	0.2574	1.71			
4.467	0.2568	1.71			
4.483	0.2559	1.73			
4.500	0.2546	1.71			
4.517	0.2535	1.73			
4.533	0.2521	1.71			
4.550	0.2503	1.71			
4.567	0.2487	1.73			
4.583	0.2468	1.71			
4.600	0.2445	1.71			
4.617	0.2426	1.71			
4.633	0.2404	1.73			
4.650	0.2378	1.73			
4.667	0.2356	1.73			
4.683	0.2330	1.73			
4.700	0.2301	1.71			
4.717	0.2276	1.73			
4.733	0.2249	1.71			
4.750	0.2219	1.73			
4.767	0.2195	1.71			
4.783	0.2166	1.71			
4.800	0.2136	1.73			
4.817	0.2110	1.73			
4.833	0.2082	1.71			
4.850	0.2050	1.71			
4.867	0.2026	1.71			
4.883	0.2000	1.71			
4.900	0.1968	1.73			
4.917	0.1943	1.73			
4.933	0.1917	1.71			
4.950	0.1889	1.71			
4.967	0.1863	1.73			
4.983	0.1836	1.71			
5.000	0.1807	1.71			
5.017	0.1786	1.73			
5.033	0.1762	1.70			
5.050	0.1735	1.73			
5.067	0.1714	1.73			
5.083	0.1691	1.71			
5.100	0.1666	1.71			
5.117	0.1644	1.71			
5.133	0.1622	1.71			
5.150	0.1600	1.71			
5.167	0.1583	1.71			
5.183	0.1563	1.71			
5.200	0.1542	1.71			
5.217	0.1526	1.71			
5.233	0.1509	1.71			
5.250	0.1490	1.71			
5.267	0.1474	1.71			
5.283	0.1457	1.73			
5.300	0.1437	1.73			
5.317	0.1420	1.73			
5.333	0.1402	1.73			
5.350	0.1383	1.73			
5.367	0.1368	1.73			
5.383	0.1352	1.73			
5.400	0.1335	1.73			
5.417	0.1322	1.71			
5.433	0.1310	1.73			
5.450	0.1298	1.71			
5.467	0.1288	1.71			
5.483	0.1277	1.71			
5.500	0.1267	1.73			
5.517	0.1259	1.71			
5.533	0.1251	1.73			
5.550	0.1242	1.71			
5.567	0.1237	1.71			
5.583	0.1231	1.71			
5.600	0.1225	1.71			
5.617	0.1221	1.71			
5.633	0.1218	1.73			
5.650	0.1214	1.71			
5.667	0.1212	1.71			
5.683	0.1211	1.71			
5.700	0.1209	1.73			
5.717	0.1208	1.71			
5.733	0.1207	1.73			
5.750	0.1208	1.73			
5.767	0.1209	1.73			
5.783	0.1209	1.71			
5.800	0.1211	1.73			
5.817	0.1212	1.73			
5.833	0.1214	1.71			
5.850	0.1218	1.73			
5.867	0.1221	1.71			
5.883	0.1225	1.71			
5.900	0.1229	1.71			
5.917	0.1233	1.71			
5.933	0.1238	1.73			
5.950	0.1243	1.71			
5.967	0.1248	1.73			
5.983	0.1253	1.71			
6.000	0.1260	1.71			
6.017	0.1266	1.71			
6.033	0.1273	1.71			
6.050	0.1280	1.71			
6.067	0.1286	1.71			
6.083	0.1293	1.73			
6.100	0.1301	1.71			
6.117	0.1307	1.71			
6.133	0.1314	1.71			
6.150	0.1321	1.73			
6.167	0.1329	1.71			
6.183	0.1337	1.73			
6.200	0.1345	1.73			
6.217	0.1353	1.71			
6.233	0.1360	1.71			
6.250	0.1367	1.73			
6.267	0.1372	1.71			
6.283	0.1379	1.73			
6.300	0.1388	1.73			
6.317	0.1394	1.71			
6.333	0.1402	1.73			
6.350	0.1410	1.71			
6.367	0.1417	1.73			
6.383	0.1423	1.71			
6.400	0.1431	1.71			
6.417	0.1438	1.73			
6.433	0.1446	1.71			
6.450	0.1453	1.71			
6.467	0.1459	1.71			
6.483	0.1465	1.73			
6.500	0.1474	1.71			
6.517	0.1481	1.73			
6.533	0.1489	1.73			
6.550	0.1498	1.71			
6.567	0.1505	1.71			
6.583	0.1514	1.73			
6.600	0.1522	1.71			
6.617	0.1530	1.71			
6.633	0.1538	1.73			
6.650	0.1546	1.71			
6.667	0.1554	1.73			
6.683	0.1563	1.71			
6.700	0.1573	1.71			
6.717	0.1581	1.71			
6.733	0.1589	1.71			
6.750	0.1598	1.71			
6.767	0.1607	1.73			
6.783	0.1615	1.73			
6.800	0.1625	1.71			
6.817	0.1632	1.73			
6.833	0.1641	1.71			
6.850	0.1649	1.71			
6.867	0.1657	1.73			
6.883	0.1664	1.73			
6.900	0.1672	1.73			
6.917	0.1678	1.71			
6.933	0.1685	1.73			
6.950	0.1691	1.73			
6.967	0.1696	1.73			
6.983	0.1700	1.71			
7.000	0.1706	1.73			
7.017	0.1711	1.73			
7.033	0.1713	1.71			
7.050	0.1715	1.71			
7.067	0.1716	1.71			
7.083	0.1717	1.73			
7.100	0.1718	1.71			
7.117	0.1717	1.71			
7.133	0.1716	1.71			
7.150	0.1714	1.71			
7.167	0.1712	1.71			
7.183	0.1709	1.71			
7.200	0.1706	1.71			
7.217	0.1702	1.73			
7.233	0.1697	1.71			
7.250	0.1692	1.73			
7.267	0.1687	1.73			
7.283	0.1683	1.73			
7.300	0.1676	1.73			
7.317	0.1670	1.71			
7.333	0.1662	1.71			
7.350	0.1654	1.73			
7.367	0.1643	1.71			
7.383	0.1631	1.73			
7.400	0.1619	1.73			
7.417	0.1609	1.71			
7.433	0.1600	1.73			
7.450	0.1589	1.73			
7.467	0.1579	1.71			
7.483	0.1566	1.73			
7.500	0.1554	1.71			
7.517	0.1542	1.73			
7.533	0.1531	1.71			
7.550	0.1517	1.73			
7.567	0.1506	1.70			
7.583	0.1495	1.71			
7.600	0.1483	1.71			
7.617	0.1471	1.71			
7.633	0.1460	1.71			
7.650	0.1447	1.71			
7.667	0.1433	1.71			
7.683	0.1421	1.73			
7.700	0.1408	1.71			
7.717	0.1396	1.73			
7.733	0.1380	1.71			
7.750	0.1365	1.73			
7.767	0.1350	1.73			
7.783	0.1338	1.71			
7.800	0.1321	1.73			
7.817	0.1304	1.73			
7.833	0.1287	1.71			
7.850	0.1270	1.71			
7.867	0.1254	1.73			
7.883	0.1235	1.71			
7.900	0.1219	1.73			
7.917	0.1204	1.73			
7.933	0.1186	1.71			
7.950	0.1169	1.73			
7.967	0.1154	1.73			
7.983	0.1137	1.71			
8.000	0.1119	1.71			
8.017	0.1103	1.71			
8.033	0.1085	1.71			
8.050	0.1068	1.73			
8.067	0.1052	1.71			
8.083	0.1038	1.73			
8.100	0.1022	1.73			
8.117	0.1008	1.73			
8.133	0.0990	1.73			
8.150	0.0973	1.71			
8.167	0.0956	1.73			
8.183	0.0941	1.71			
8.200	0.0928	1.71			
8.217	0.0917	1.71			
8.233	0.0904	1.71			
8.250	0.0890	1.71			
8.267	0.0878	1.73			
8.283	0.0865	1.73			
8.300	0.0851	1.71			
8.317	0.0841	1.71			
8.333	0.0831	1.71			
8.350	0.0820	1.71			
8.367	0.0812	1.73			
8.383	0.0803	1.73			
8.400	0.0795	1.71			
8.417	0.0786	1.71			
8.433	0.0779	1.73			
8.450	0.0772	1.73			
8.467	0.0766	1.71			
8.483	0.0760	1.73			
8.500	0.0754	1.71			
8.517	0.0748	1.73			
8.533	0.0743	1.71			
8.550	0.0738	1.71			
8.567	0.0734	1.71			
8.583	0.0729	1.71			
8.600	0.0725	1.73			
8.617	0.0723	1.71			
8.633	0.0720	1.71			
8.650	0.0717	1.71			
8.667	0.0714	1.71			
8.683	0.0713	1.73			
8.700	0.0712	1.71			
8.717	0.0711	1.71			
8.733	0.0708	1.71			
8.750	0.0705	1.71			
8.767	0.0704	1.73			
8.783	0.0702	1.71			
8.800	0.0700	1.71			
8.817	0.0698	1.71			
8.833	0.0697	1.71			
8.850	0.0695	1.71			
8.867	0.0693	1.71			
8.883	0.0693	1.71			
8.900	0.0691	1.71			
8.917	0.0689	1.71			
8.933	0.0686	1.71			
8.950	0.0685	1.71			
8.967	0.0684	1.73			
8.983	0.0682	1.71			
9.000	0.0679	1.73			
9.017	0.0678	1.71			
9.033	0.0677	1.73			
9.050	0.0677	1.73			
9.067	0.0676	1.71			
9.083	0.0676	1.73			
9.100	0.0675	1.71			
9.117	0.0676	1.73			
9.133	0.0677	1.71			
9.150	0.0677	1.71			
9.167	0.0677	1.71			
9.183	0.0678	1.71			
9.200	0.0679	1.71			
9.217	0.0680	1.71			
9.233	0.0682	1.71			
9.250	0.0682	1.71			
9.267	0.0683	1.71			
9.283	0.0684	1.73			
9.300	0.0685	1.73			
9.317	0.0687	1.73			
9.333	0.0689	1.71			
9.350	0.0692	1.71			
9.367	0.0694	1.71			
9.383	0.0697	1.71			
9.400	0.0700	1.71			
9.417	0.0701	1.71			
9.433	0.0704	1.71			
9.450	0.0707	1.73			
9.467	0.0711	1.73			
9.483	0.0715	1.71			
9.500	0.0718	1.71			
9.517	0.0723	1.71			
9.533	0.0726	1.71			
9.550	0.0731	1.73			
9.567	0.0731	1.73			
9.583	0.0732	1.71			
9.600	0.0734	1.73			
9.617	0.0737	1.71			
9.633	0.0740	1.73			
9.650	0.0742	1.71			
9.667	0.0744	1.71			
9.683	0.0746	1.73			
9.700	0.0748	1.71			
9.717	0.0749	1.71			
9.733	0.0751	1.73			
9.750	0.0752	1.73			
9.767	0.0754	1.73			
9.783	0.0756	1.73			
9.800	0.0757	1.71			
9.817	0.0759	1.73			
9.833	0.0761	1.73			
9.850	0.0764	1.71			
9.867	0.0767	1.73			
9.883	0.0770	1.73			
9.900	0.0773	1.71			
9.917	0.0776	1.71			
9.933	0.0778	1.71			
9.950	0.0781	1.71			
9.967	0.0783	1.71			
9.983	0.0786	1.71			
10.000	0.0788	1.71			
10.017	0.0790	1.71			
10.033	0.0792	1.71			
10.050	0.0794	1.73			
10.067	0.0795	1.71			
10.083	0.0796	1.73			
10.100	0.0798	1.71			
10.117	0.0799	1.73			
10.133	0.0800	1.71			
10.150	0.0801	1.71			
10.167	0.0803	1.71			
10.183	0.0804	1.71			
10.200	0.0806	1.71			
10.217	0.0807	1.73			
10.233	0.0809	1.71			
10.250	0.0811	1.71			
10.267	0.0812	1.71			
10.283	0.0814	1.71			
10.300	0.0816	1.71			
10.317	0.0819	1.71			
10.333	0.0821	1.73			
10.350	0.0824	1.71			
10.367	0.0826	1.71			
10.383	0.0829	1.73			
10.400	0.0831	1.71			
10.417	0.0834	1.73			
10.433	0.0837	1.71			
10.450	0.0840	1.70			
10.467	0.0843	1.73			
10.483	0.0850	1.71			
10.500	0.0854	1.71			
10.517	0.0852	1.71			
10.533	0.0854	1.73			
10.550	0.0855	1.73			
10.567	0.0857	1.73			
10.583	0.0860	1.73			
10.600	0.0862	1.73			
10.617	0.0865	1.71			
10.633	0.0866	1.71			
10.650	0.0866	1.73			
10.667	0.0868	1.71			
10.683	0.0869	1.73			
10.700	0.0871	1.71			
10.717	0.0872	1.71			
10.733	0.0873	1.73			
10.750	0.0875	1.71			
10.767	0.0877	1.71			
10.783	0.0878	1.71			
10.800	0.0879	1.71			
10.817	0.0880	1.73			
10.833	0.0881	1.71			
10.850	0.0882	1.71			
10.867	0.0884	1.73			
10.883	0.0885	1.71			
10.900	0.0887	1.71			
10.917	0.0890	1.71			
10.933	0.0892	1.71			
10.950	0.0894	1.71			
10.967	0.0896	1.71			
10.983	0.0897	1.73			
11.000	0.0898	1.71			
11.017	0.0898	1.73			
11.033	0.0898	1.73			
11.050	0.0898	1.73			
11.067	0.0899	1.71			
11.083	0.0900	1.73			
11.100	0.0901	1.73			
11.117	0.0902	1.73			
11.133	0.0904	1.71			
11.150	0.0905	1.71			
11.167	0.0907	1.71			
11.183	0.0908	1.73			
11.200	0.0910	1.71			
11.217	0.0911	1.71			
11.233	0.0913	1.71			
11.250	0.0915	1.71			
11.267	0.0917	1.71			
11.283	0.0920	1.71			
11.300	0.0922	1.71			
11.317	0.0925	1.71			
11.333	0.0928	1.71			
11.350	0.0932	1.71			
11.367	0.0935	1.71			
11.383	0.0938	1.69			
11.400	0.0943	1.71			
11.417	0.0948	1.71			
11.433	0.0952	1.71			
11.450	0.0958	1.73			
11.467	0.0964	1.71			
11.483	0.0971	1.71			
11.500	0.0978	1.71			
11.517	0.0985	1.69			
11.533	0.0989	1.73			
11.550	0.0991	1.71			
11.567	0.0992	1.71			
11.583	0.0993	1.73			
11.600	0.0996	1.71			
11.617	0.1001	1.71			
11.633	0.1008	1.71			
11.650	0.1018	1.71			
11.667	0.1032	1.71			
11.683	0.1048	1.69			
11.700	0.1065	1.71			
11.717	0.1079	1.71			
11.733	0.1090	1.73			
11.750	0.1095	1.71			
11.767	0.1101	1.71			
11.783	0.1110	1.71			
11.800	0.1121	1.69			
11.817	0.1128	1.71			
11.833	0.1130	1.71			
11.850	0.1126	1.71			
11.867	0.1114	1.71			
11.883	0.1102	1.71			
11.900	0.1089	1.71			
11.917	0.1073	1.71			
11.933	0.1059	1.71			
11.950	0.1051	1.71			
11.967	0.1046	1.73			
11.983	0.1039	1.71			
12.000	0.1028	1.71			
12.017	0.1010	1.71			
12.033	0.0989	1.71			
12.050	0.0972	1.71			
12.067	0.0966	1.71			
12.083	0.0968	1.69			
12.100	0.0982	1.71			
12.117	0.1005	1.73			
